{
  "resourceType": "PlanDefinition",
  "id": "abacavir-need-test",
  "text": {
    "status": "generated",
    "div": "<div xmlns=\"http://www.w3.org/1999/xhtml\">Abacavir Hypersensitivity Intervention - Need Test</div>"
  },
  "contained": [
    {
      "resourceType": "ActivityDefinition",
      "id": "create-diagnostic-order-for-genotype-test",
      "status": "active",
      "category": "diagnostic",
      "dynamicValue": [
        {
          "path": "stage",
          "expression": "Code 'proposal' from RequestStage display 'Proposal'"
        },
        {
          "path": "code",
          "expression": "Genotype Results for HLA-B*57:01 Allele"
        },
        {
          "path": "subject",
          "expression": "Patient"
        },
        {
          "path": "occurrenceDateTime",
          "expression": "Now()"
        },
        {
          "path": "requester",
          "expression": "CDS System"
        },
        {
          "path": "reason",
          "expression": "'The patient is being prescribed Abacavir without appropriate genotype testing for Abacavir sensitivity.'"
        },
        {
          "path": "supportingInformation",
          "expression": "Observed HLA-B*57:01 Allele"
        }
      ]
    },
    {
      "resourceType": "ActivityDefinition",
      "id": "missing-genotype-test-alert",
      "status": "active",
      "category": "communication",
      "dynamicValue": [
        {
          "path": "sender",
          "expression": "CDS System"
        },
        {
          "path": "recipient",
          "expression": "Primary Provider"
        },
        {
          "path": "payload.content",
          "expression": "'An order for Abacavir has been made for the patient without proper genotype screening'"
        },
        {
          "path": "payload.content",
          "expression": "'An HLA-B*57:01 genotype test is recommended before prescribing abacavir per the FDA\\'s black box warning         regarding the risk of serious hypersensitivity reactions in patients that carry this allele. A HLA-B*57:01         genotype test does not appear to have been ordered for this patient. An unsigned order has been created to perform         this test, {{click here to sign the order}}'"
        },
        {
          "path": "status",
          "expression": "'proposed'"
        },
        {
          "path": "encounter",
          "expression": "Encounter"
        },
        {
          "path": "scheduled",
          "expression": "Now()"
        },
        {
          "path": "reason",
          "expression": "Needs Genotype Test"
        },
        {
          "path": "requestedOn",
          "expression": "Now()"
        },
        {
          "path": "subject",
          "expression": "Patient"
        },
        {
          "path": "priority",
          "expression": "Code 'urgent' from DiagnosticPriority display 'Urgent'"
        }
      ]
    }
  ],
  "identifier": [
    {
      "use": "official",
      "value": "abacavir-hypersensitivity-need-test"
    }
  ],
  "version": "1.0.0",
  "title": "Abacavir Hypersensitivity Intervention Need Test",
  "status": "active",
  "description": "Abacavir hypersensitivity intervention to alert the user that a genotype test should be administered.",
  "publicationDate": "2016-04-01",
  "topic": [
    {
      "text": "Abacavir Hypersensitivity - Need Test"
    }
  ],
  "library": [
    {
      "reference": "Library/library-abacavir-hypersensitivity-cds-logic"
    }
  ],
  "actionDefinition": [
    {
      "title": "Patient should be administered a Genotype Test.",
      "triggerDefinition": [
        {
          "type": "data-added",
          "eventData": {
            "type": "MedicationOrder",
            "codeFilter": [
              {
                "path": "code",
                "valueCodeableConcept": [
                  {
                    "coding": [
                      {
                        "system": "http://snomed.org/sct",
                        "code": "387005008"
                      }
                    ],
                    "text": "Abacavir (substance)"
                  }
                ]
              }
            ]
          }
        }
      ],
      "condition": {
        "language": "text/cql",
        "expression": "Needs Genotype Test"
      },
      "actionDefinition": [
        {
          "title": "Create the Genotype Test.",
          "textEquivalent": "Administer a Genotype Test.",
          "participantType": [
            "practitioner"
          ],
          "type": {
            "code": "create"
          },
          "activityDefinition": {
            "reference": "#create-diagnostic-order-for-genotype-test"
          }
        },
        {
          "title": "Notify the provider to sign the order.",
          "textEquivalent": "A Genotype Test is recommended, please authorize or reject the order.",
          "participantType": [
            "practitioner"
          ],
          "type": {
            "code": "create"
          },
          "activityDefinition": {
            "reference": "#missing-genotype-test-alert"
          }
        }
      ]
    }
  ]
}